# phi    <N>    sem(N)   <dN^2>    sem(dN^2)
7.43000 3.47459 0.05948 3.24638 0.12275
7.42000 3.48773 0.05917 3.26353 0.12289
7.41000 3.50094 0.05885 3.28079 0.12303
7.40000 3.51422 0.05854 3.29817 0.12316
7.39000 3.52756 0.05824 3.31568 0.12329
7.38000 3.54098 0.05793 3.33330 0.12342
7.37000 3.55447 0.05762 3.35106 0.12355
7.36000 3.56803 0.05732 3.36893 0.12367
7.35000 3.58167 0.05701 3.38693 0.12379
7.34000 3.59537 0.05671 3.40506 0.12391
7.33000 3.60915 0.05641 3.42332 0.12403
7.32000 3.62301 0.05612 3.44170 0.12414
7.31000 3.63694 0.05582 3.46021 0.12425
7.30000 3.65094 0.05553 3.47886 0.12436
7.29000 3.66502 0.05523 3.49764 0.12447
7.28000 3.67918 0.05494 3.51655 0.12457
7.27000 3.69341 0.05465 3.53559 0.12466
7.26000 3.70772 0.05437 3.55477 0.12476
7.25000 3.72210 0.05408 3.57409 0.12485
7.24000 3.73657 0.05380 3.59354 0.12494
7.23000 3.75111 0.05352 3.61313 0.12502
7.22000 3.76573 0.05324 3.63287 0.12510
7.21000 3.78044 0.05296 3.65274 0.12517
7.20000 3.79522 0.05269 3.67276 0.12524
7.19000 3.81009 0.05242 3.69291 0.12531
7.18000 3.82503 0.05215 3.71322 0.12537
7.17000 3.84006 0.05188 3.73367 0.12543
7.16000 3.85517 0.05161 3.75427 0.12549
7.15000 3.87037 0.05135 3.77501 0.12554
7.14000 3.88565 0.05109 3.79591 0.12558
7.13000 3.90101 0.05083 3.81695 0.12562
7.12000 3.91646 0.05058 3.83815 0.12565
7.11000 3.93199 0.05032 3.85950 0.12569
7.10000 3.94761 0.05007 3.88101 0.12571
7.09000 3.96332 0.04983 3.90267 0.12573
7.08000 3.97912 0.04958 3.92449 0.12574
7.07000 3.99500 0.04934 3.94647 0.12575
7.06000 4.01098 0.04910 3.96861 0.12576
7.05000 4.02704 0.04886 3.99091 0.12576
7.04000 4.04319 0.04863 4.01337 0.12575
7.03000 4.05944 0.04840 4.03600 0.12574
7.02000 4.07577 0.04817 4.05879 0.12572
7.01000 4.09220 0.04794 4.08175 0.12570
7.00000 4.10872 0.04772 4.10488 0.12567
6.99000 4.12534 0.04750 4.12818 0.12563
6.98000 4.14205 0.04728 4.15165 0.12559
6.97000 4.15885 0.04707 4.17529 0.12555
6.96000 4.17575 0.04686 4.19911 0.12549
6.95000 4.19275 0.04665 4.22311 0.12544
6.94000 4.20984 0.04644 4.24728 0.12537
6.93000 4.22704 0.04624 4.27163 0.12530
6.92000 4.24433 0.04604 4.29617 0.12522
6.91000 4.26172 0.04584 4.32088 0.12514
6.90000 4.27921 0.04565 4.34578 0.12505
6.89000 4.29680 0.04546 4.37087 0.12496
6.88000 4.31449 0.04528 4.39614 0.12486
6.87000 4.33229 0.04509 4.42160 0.12475
6.86000 4.35018 0.04491 4.44726 0.12464
6.85000 4.36819 0.04473 4.47310 0.12452
6.84000 4.38629 0.04456 4.49914 0.12439
6.83000 4.40450 0.04439 4.52538 0.12426
6.82000 4.42282 0.04422 4.55182 0.12412
6.81000 4.44125 0.04406 4.57845 0.12398
6.80000 4.45978 0.04390 4.60529 0.12383
6.79000 4.47843 0.04374 4.63233 0.12367
6.78000 4.49718 0.04358 4.65957 0.12351
6.77000 4.51604 0.04343 4.68703 0.12334
6.76000 4.53501 0.04328 4.71469 0.12317
6.75000 4.55410 0.04314 4.74256 0.12299
6.74000 4.57330 0.04299 4.77065 0.12280
6.73000 4.59261 0.04285 4.79895 0.12261
6.72000 4.61204 0.04272 4.82747 0.12242
6.71000 4.63158 0.04258 4.85621 0.12222
6.70000 4.65124 0.04245 4.88517 0.12201
6.69000 4.67101 0.04232 4.91436 0.12180
6.68000 4.69091 0.04220 4.94377 0.12158
6.67000 4.71092 0.04208 4.97340 0.12136
6.66000 4.73106 0.04196 5.00327 0.12113
6.65000 4.75131 0.04184 5.03338 0.12090
6.64000 4.77169 0.04173 5.06371 0.12066
6.63000 4.79219 0.04162 5.09428 0.12042
6.62000 4.81281 0.04151 5.12510 0.12018
6.61000 4.83356 0.04141 5.15615 0.11993
6.60000 4.85444 0.04130 5.18745 0.11967
6.59000 4.87544 0.04120 5.21900 0.11942
6.58000 4.89657 0.04110 5.25079 0.11916
6.57000 4.91782 0.04101 5.28284 0.11889
6.56000 4.93921 0.04092 5.31514 0.11862
6.55000 4.96073 0.04083 5.34770 0.11835
6.54000 4.98238 0.04074 5.38052 0.11808
6.53000 5.00416 0.04065 5.41360 0.11781
6.52000 5.02608 0.04057 5.44694 0.11753
6.51000 5.04813 0.04049 5.48055 0.11725
6.50000 5.07032 0.04041 5.51444 0.11696
6.49000 5.09265 0.04033 5.54859 0.11668
6.48000 5.11511 0.04026 5.58303 0.11640
6.47000 5.13772 0.04018 5.61774 0.11611
6.46000 5.16046 0.04011 5.65273 0.11582
6.45000 5.18335 0.04004 5.68801 0.11553
6.44000 5.20638 0.03997 5.72357 0.11525
6.43000 5.22955 0.03990 5.75943 0.11496
6.42000 5.25287 0.03984 5.79558 0.11467
6.41000 5.27634 0.03977 5.83203 0.11438
6.40000 5.29995 0.03971 5.86878 0.11410
6.39000 5.32371 0.03965 5.90583 0.11381
6.38000 5.34763 0.03959 5.94319 0.11353
6.37000 5.37169 0.03953 5.98086 0.11324
6.36000 5.39591 0.03947 6.01884 0.11296
6.35000 5.42028 0.03941 6.05714 0.11268
6.34000 5.44480 0.03936 6.09576 0.11241
6.33000 5.46949 0.03930 6.13471 0.11214
6.32000 5.49433 0.03925 6.17398 0.11187
6.31000 5.51932 0.03919 6.21359 0.11160
6.30000 5.54448 0.03914 6.25353 0.11134
6.29000 5.56981 0.03909 6.29381 0.11108
6.28000 5.59529 0.03903 6.33443 0.11082
6.27000 5.62094 0.03898 6.37540 0.11057
6.26000 5.64676 0.03893 6.41672 0.11033
6.25000 5.67274 0.03888 6.45840 0.11009
6.24000 5.69889 0.03882 6.50043 0.10985
6.23000 5.72521 0.03877 6.54282 0.10963
6.22000 5.75171 0.03872 6.58559 0.10940
6.21000 5.77838 0.03867 6.62872 0.10919
6.20000 5.80522 0.03862 6.67223 0.10898
6.19000 5.83224 0.03856 6.71612 0.10878
6.18000 5.85944 0.03851 6.76039 0.10858
6.17000 5.88681 0.03846 6.80505 0.10839
6.16000 5.91437 0.03840 6.85011 0.10821
6.15000 5.94211 0.03835 6.89556 0.10804
6.14000 5.97003 0.03829 6.94142 0.10787
6.13000 5.99814 0.03823 6.98768 0.10771
6.12000 6.02644 0.03818 7.03436 0.10756
6.11000 6.05493 0.03812 7.08145 0.10742
6.10000 6.08361 0.03806 7.12896 0.10729
6.09000 6.11248 0.03800 7.17690 0.10717
6.08000 6.14154 0.03794 7.22528 0.10705
6.07000 6.17080 0.03788 7.27409 0.10695
6.06000 6.20026 0.03781 7.32334 0.10685
6.05000 6.22992 0.03775 7.37304 0.10676
6.04000 6.25978 0.03768 7.42320 0.10669
6.03000 6.28984 0.03762 7.47381 0.10662
6.02000 6.32011 0.03755 7.52488 0.10656
6.01000 6.35059 0.03748 7.57643 0.10651
6.00000 6.38127 0.03740 7.62845 0.10647
5.99000 6.41217 0.03733 7.68096 0.10644
5.98000 6.44328 0.03725 7.73395 0.10642
5.97000 6.47460 0.03718 7.78743 0.10641
5.96000 6.50614 0.03710 7.84142 0.10641
5.95000 6.53790 0.03702 7.89590 0.10642
5.94000 6.56988 0.03693 7.95090 0.10644
5.93000 6.60209 0.03685 8.00642 0.10647
5.92000 6.63451 0.03676 8.06247 0.10651
5.91000 6.66717 0.03667 8.11904 0.10656
5.90000 6.70006 0.03658 8.17615 0.10661
5.89000 6.73317 0.03649 8.23381 0.10668
5.88000 6.76652 0.03639 8.29201 0.10676
5.87000 6.80011 0.03629 8.35078 0.10685
5.86000 6.83393 0.03619 8.41011 0.10695
5.85000 6.86800 0.03609 8.47001 0.10705
5.84000 6.90231 0.03598 8.53049 0.10717
5.83000 6.93686 0.03588 8.59155 0.10730
5.82000 6.97166 0.03576 8.65321 0.10743
5.81000 7.00672 0.03565 8.71548 0.10758
5.80000 7.04202 0.03553 8.77835 0.10774
5.79000 7.07758 0.03542 8.84184 0.10791
5.78000 7.11340 0.03529 8.90595 0.10808
5.77000 7.14947 0.03517 8.97069 0.10827
5.76000 7.18581 0.03504 9.03608 0.10847
5.75000 7.22242 0.03491 9.10211 0.10868
5.74000 7.25929 0.03478 9.16880 0.10890
5.73000 7.29643 0.03464 9.23616 0.10913
5.72000 7.33385 0.03450 9.30419 0.10937
5.71000 7.37154 0.03436 9.37291 0.10963
5.70000 7.40951 0.03422 9.44231 0.10989
5.69000 7.44776 0.03407 9.51242 0.11017
5.68000 7.48630 0.03392 9.58324 0.11046
5.67000 7.52512 0.03376 9.65478 0.11077
5.66000 7.56424 0.03360 9.72704 0.11109
5.65000 7.60365 0.03344 9.80005 0.11142
5.64000 7.64335 0.03328 9.87380 0.11177
5.63000 7.68335 0.03311 9.94831 0.11214
5.62000 7.72366 0.03294 10.02359 0.11252
5.61000 7.76427 0.03276 10.09964 0.11292
5.60000 7.80519 0.03258 10.17649 0.11334
5.59000 7.84642 0.03240 10.25414 0.11378
5.58000 7.88796 0.03221 10.33259 0.11424
5.57000 7.92983 0.03202 10.41187 0.11472
5.56000 7.97201 0.03183 10.49198 0.11523
5.55000 8.01453 0.03163 10.57293 0.11576
5.54000 8.05736 0.03143 10.65474 0.11631
5.53000 8.10054 0.03122 10.73741 0.11689
5.52000 8.14404 0.03101 10.82097 0.11751
5.51000 8.18789 0.03080 10.90541 0.11815
5.50000 8.23208 0.03058 10.99077 0.11882
5.49000 8.27661 0.03036 11.07703 0.11953
5.48000 8.32150 0.03014 11.16423 0.12028
5.47000 8.36674 0.02991 11.25237 0.12106
5.46000 8.41233 0.02968 11.34146 0.12188
5.45000 8.45829 0.02944 11.43153 0.12275
5.44000 8.50461 0.02920 11.52258 0.12366
5.43000 8.55131 0.02896 11.61463 0.12462
5.42000 8.59837 0.02871 11.70769 0.12562
5.41000 8.64582 0.02846 11.80178 0.12668
5.40000 8.69364 0.02820 11.89691 0.12779
5.39000 8.74185 0.02794 11.99310 0.12895
5.38000 8.79046 0.02768 12.09036 0.13018
5.37000 8.83945 0.02741 12.18872 0.13146
5.36000 8.88885 0.02714 12.28819 0.13281
5.35000 8.93865 0.02686 12.38878 0.13422
5.34000 8.98886 0.02658 12.49051 0.13570
5.33000 9.03948 0.02630 12.59340 0.13725
5.32000 9.09052 0.02602 12.69747 0.13888
5.31000 9.14198 0.02573 12.80274 0.14058
5.30000 9.19387 0.02544 12.90922 0.14235
5.29000 9.24619 0.02515 13.01694 0.14421
5.28000 9.29895 0.02486 13.12592 0.14615
5.27000 9.35215 0.02457 13.23617 0.14816
5.26000 9.40580 0.02427 13.34772 0.15027
5.25000 9.45990 0.02397 13.46059 0.15246
5.24000 9.51446 0.02368 13.57480 0.15474
5.23000 9.56949 0.02338 13.69037 0.15711
5.22000 9.62498 0.02309 13.80734 0.15957
5.21000 9.68095 0.02280 13.92571 0.16213
5.20000 9.73740 0.02251 14.04552 0.16478
5.19000 9.79433 0.02222 14.16680 0.16752
5.18000 9.85176 0.02194 14.28956 0.17036
5.17000 9.90968 0.02167 14.41384 0.17330
5.16000 9.96811 0.02140 14.53966 0.17633
5.15000 10.02706 0.02114 14.66705 0.17946
5.14000 10.08651 0.02089 14.79604 0.18269
5.13000 10.14650 0.02065 14.92666 0.18602
5.12000 10.20701 0.02043 15.05894 0.18944
5.11000 10.26806 0.02022 15.19291 0.19296
5.10000 10.32966 0.02003 15.32861 0.19658
5.09000 10.39180 0.01985 15.46607 0.20030
5.08000 10.45451 0.01970 15.60531 0.20411
5.07000 10.51778 0.01957 15.74639 0.20801
5.06000 10.58162 0.01947 15.88933 0.21201
5.05000 10.64605 0.01940 16.03417 0.21610
5.04000 10.71106 0.01935 16.18095 0.22028
5.03000 10.77667 0.01934 16.32971 0.22455
5.02000 10.84288 0.01937 16.48050 0.22891
5.01000 10.90971 0.01943 16.63334 0.23336
5.00000 10.97716 0.01953 16.78829 0.23789
4.99000 11.04523 0.01967 16.94540 0.24250
4.98000 11.11395 0.01986 17.10470 0.24720
4.97000 11.18331 0.02009 17.26624 0.25197
4.96000 11.25333 0.02036 17.43008 0.25682
4.95000 11.32402 0.02069 17.59627 0.26174
4.94000 11.39538 0.02106 17.76485 0.26673
4.93000 11.46743 0.02147 17.93587 0.27179
4.92000 11.54017 0.02193 18.10941 0.27691
4.91000 11.61362 0.02245 18.28550 0.28210
4.90000 11.68778 0.02300 18.46421 0.28734
4.89000 11.76267 0.02361 18.64560 0.29265
4.88000 11.83830 0.02426 18.82974 0.29800
4.87000 11.91468 0.02495 19.01667 0.30341
4.86000 11.99182 0.02569 19.20648 0.30886
4.85000 12.06972 0.02647 19.39923 0.31436
4.84000 12.14842 0.02730 19.59499 0.31989
4.83000 12.22791 0.02816 19.79382 0.32547
4.82000 12.30821 0.02907 19.99581 0.33108
4.81000 12.38933 0.03001 20.20103 0.33672
4.80000 12.47128 0.03100 20.40956 0.34239
4.79000 12.55409 0.03201 20.62148 0.34808
4.78000 12.63775 0.03307 20.83688 0.35380
4.77000 12.72229 0.03416 21.05583 0.35954
4.76000 12.80773 0.03528 21.27844 0.36529
4.75000 12.89407 0.03644 21.50478 0.37107
4.74000 12.98133 0.03763 21.73496 0.37685
4.73000 13.06953 0.03885 21.96906 0.38265
4.72000 13.15868 0.04010 22.20720 0.38847
4.71000 13.24880 0.04138 22.44947 0.39429
4.70000 13.33991 0.04269 22.69599 0.40013
4.69000 13.43202 0.04402 22.94684 0.40598
4.68000 13.52515 0.04539 23.20217 0.41184
4.67000 13.61932 0.04677 23.46206 0.41772
4.66000 13.71455 0.04819 23.72666 0.42363
4.65000 13.81086 0.04963 23.99607 0.42955
4.64000 13.90826 0.05109 24.27043 0.43551
4.63000 14.00679 0.05258 24.54987 0.44151
4.62000 14.10645 0.05408 24.83453 0.44754
4.61000 14.20727 0.05561 25.12453 0.45364
4.60000 14.30927 0.05716 25.42004 0.45980
4.59000 14.41248 0.05874 25.72118 0.46604
4.58000 14.51691 0.06033 26.02813 0.47237
4.57000 14.62259 0.06194 26.34102 0.47881
4.56000 14.72955 0.06356 26.66004 0.48539
4.55000 14.83781 0.06521 26.98534 0.49211
4.54000 14.94740 0.06687 27.31711 0.49900
4.53000 15.05834 0.06855 27.65551 0.50609
4.52000 15.17066 0.07025 28.00074 0.51341
4.51000 15.28438 0.07196 28.35298 0.52098
4.50000 15.39954 0.07369 28.71244 0.52883
4.49000 15.51617 0.07544 29.07932 0.53701
4.48000 15.63429 0.07720 29.45384 0.54554
4.47000 15.75394 0.07897 29.83620 0.55446
4.46000 15.87515 0.08076 30.22664 0.56382
4.45000 15.99796 0.08257 30.62540 0.57365
4.44000 16.12239 0.08439 31.03272 0.58400
4.43000 16.24848 0.08623 31.44885 0.59490
4.42000 16.37627 0.08809 31.87406 0.60640
4.41000 16.50579 0.08996 32.30861 0.61853
4.40000 16.63709 0.09185 32.75279 0.63135
4.39000 16.77020 0.09376 33.20690 0.64489
4.38000 16.90516 0.09569 33.67125 0.65919
4.37000 17.04202 0.09765 34.14614 0.67428
4.36000 17.18082 0.09963 34.63191 0.69019
4.35000 17.32160 0.10163 35.12890 0.70696
4.34000 17.46441 0.10366 35.63748 0.72461
4.33000 17.60930 0.10572 36.15801 0.74316
4.32000 17.75631 0.10782 36.69089 0.76262
4.31000 17.90550 0.10994 37.23652 0.78301
4.30000 18.05692 0.11211 37.79533 0.80434
4.29000 18.21062 0.11432 38.36776 0.82659
4.28000 18.36666 0.11657 38.95427 0.84978
4.27000 18.52509 0.11888 39.55535 0.87388
4.26000 18.68598 0.12123 40.17150 0.89889
4.25000 18.84939 0.12364 40.80324 0.92478
4.24000 19.01539 0.12612 41.45114 0.95153
4.23000 19.18403 0.12866 42.11576 0.97911
4.22000 19.35539 0.13126 42.79771 1.00748
4.21000 19.52953 0.13394 43.49763 1.03660
4.20000 19.70654 0.13670 44.21617 1.06644
4.19000 19.88649 0.13955 44.95402 1.09694
4.18000 20.06946 0.14248 45.71192 1.12806
4.17000 20.25552 0.14550 46.49062 1.15976
4.16000 20.44478 0.14862 47.29091 1.19198
4.15000 20.63731 0.15184 48.11362 1.22468
4.14000 20.83320 0.15517 48.95962 1.25780
4.13000 21.03256 0.15860 49.82982 1.29132
4.12000 21.23548 0.16214 50.72516 1.32518
4.11000 21.44207 0.16580 51.64663 1.35936
4.10000 21.65243 0.16958 52.59527 1.39383
4.09000 21.86668 0.17347 53.57216 1.42857
4.08000 22.08493 0.17749 54.57840 1.46357
4.07000 22.30730 0.18162 55.61518 1.49885
4.06000 22.53392 0.18589 56.68371 1.53443
4.05000 22.76492 0.19027 57.78525 1.57034
4.04000 23.00043 0.19478 58.92111 1.60665
4.03000 23.24060 0.19942 60.09264 1.64343
4.02000 23.48558 0.20418 61.30126 1.68079
4.01000 23.73551 0.20906 62.54839 1.71886
4.00000 23.99055 0.21407 63.83555 1.75779
3.99000 24.25087 0.21920 65.16427 1.79777
3.98000 24.51664 0.22445 66.53611 1.83903
3.97000 24.78804 0.22982 67.95270 1.88180
3.96000 25.06524 0.23531 69.41567 1.92636
3.95000 25.34845 0.24093 70.92671 1.97303
3.94000 25.63786 0.24666 72.48751 2.02213
3.93000 25.93367 0.25251 74.09979 2.07402
3.92000 26.23610 0.25848 75.76528 2.12908
3.91000 26.54535 0.26458 77.48571 2.18771
3.90000 26.86167 0.27080 79.26281 2.25029
3.89000 27.18528 0.27716 81.09829 2.31723
3.88000 27.51641 0.28365 82.99383 2.38892
3.87000 27.85532 0.29029 84.95108 2.46572
3.86000 28.20226 0.29708 86.97163 2.54797
3.85000 28.55748 0.30404 89.05702 2.63597
3.84000 28.92125 0.31118 91.20870 2.72996
3.83000 29.29384 0.31851 93.42800 2.83010
3.82000 29.67553 0.32604 95.71616 2.93651
3.81000 30.06660 0.33381 98.07428 3.04920
3.80000 30.46733 0.34183 100.50328 3.16806
3.79000 30.87800 0.35012 103.00393 3.29291
3.78000 31.29891 0.35870 105.57675 3.42341
3.77000 31.73036 0.36761 108.22209 3.55911
3.76000 32.17263 0.37686 110.93998 3.69940
3.75000 32.62601 0.38648 113.73020 3.84351
3.74000 33.09080 0.39650 116.59221 3.99053
3.73000 33.56729 0.40694 119.52511 4.13935
3.72000 34.05575 0.41782 122.52764 4.28868
3.71000 34.55647 0.42916 125.59810 4.43705
3.70000 35.06972 0.44096 128.73435 4.58281
3.69000 35.59575 0.45324 131.93375 4.72410
3.68000 36.13483 0.46600 135.19315 4.85890
3.67000 36.68717 0.47922 138.50882 4.98503
3.66000 37.25300 0.49289 141.87639 5.10014
3.65000 37.83251 0.50698 145.29087 5.20179
3.64000 38.42590 0.52145 148.74654 5.28747
3.63000 39.03331 0.53624 152.23693 5.35463
3.62000 39.65486 0.55129 155.75478 5.40078
3.61000 40.29065 0.56651 159.29199 5.42356
3.60000 40.94074 0.58182 162.83956 5.42082
3.59000 41.60516 0.59710 166.38759 5.39078
3.58000 42.28388 0.61225 169.92520 5.33211
3.57000 42.97684 0.62712 173.44055 5.24417
3.56000 43.68392 0.64159 176.92079 5.12714
3.55000 44.40495 0.65550 180.35208 4.98232
3.54000 45.13971 0.66871 183.71960 4.81238
3.53000 45.88791 0.68105 187.00760 4.62175
3.52000 46.64918 0.69238 190.19942 4.41702
3.51000 47.42312 0.70253 193.27765 4.20738
3.50000 48.20922 0.71137 196.22418 4.00508
3.49000 49.00692 0.71876 199.02039 3.82545
3.48000 49.81557 0.72457 201.64733 3.68638
3.47000 50.63445 0.72870 204.08594 3.60639
3.46000 51.46276 0.73106 206.31729 3.60127
3.45000 52.29963 0.73159 208.32290 3.68013
3.44000 53.14410 0.73025 210.08500 3.84287
3.43000 53.99517 0.72703 211.58690 4.08057
3.42000 54.85175 0.72194 212.81331 4.37842
3.41000 55.71270 0.71504 213.75066 4.71920
3.40000 56.57683 0.70639 214.38746 5.08586
3.39000 57.44291 0.69610 214.71455 5.46295
3.38000 58.30967 0.68429 214.72542 5.83706
3.37000 59.17583 0.67112 214.41637 6.19695
3.36000 60.04010 0.65677 213.78670 6.53333
3.35000 60.90118 0.64143 212.83878 6.83878
3.34000 61.75780 0.62531 211.57808 7.10750
3.33000 62.60872 0.60861 210.01310 7.33523
3.32000 63.45272 0.59157 208.15527 7.51908
3.31000 64.28866 0.57441 206.01870 7.65745
3.30000 65.11544 0.55734 203.61997 7.74983
3.29000 65.93204 0.54057 200.97777 7.79675
3.28000 66.73752 0.52429 198.11259 7.79961
3.27000 67.53101 0.50866 195.04630 7.76056
3.26000 68.31177 0.49383 191.80174 7.68237
3.25000 69.07911 0.47992 188.40237 7.56832
3.24000 69.83246 0.46700 184.87184 7.42204
3.23000 70.57133 0.45513 181.23364 7.24742
3.22000 71.29534 0.44433 177.51072 7.04852
3.21000 72.00419 0.43459 173.72527 6.82944
3.20000 72.69766 0.42585 169.89838 6.59426
3.19000 73.37565 0.41806 166.04988 6.34697
3.18000 74.03808 0.41113 162.19816 6.09142
3.17000 74.68500 0.40497 158.36004 5.83123
3.16000 75.31647 0.39945 154.55074 5.56982
3.15000 75.93265 0.39448 150.78379 5.31032
3.14000 76.53374 0.38994 147.07103 5.05559
3.13000 77.11996 0.38572 143.42272 4.80818
3.12000 77.69160 0.38172 139.84750 4.57031
3.11000 78.24897 0.37786 136.35252 4.34390
3.10000 78.79241 0.37406 132.94354 4.13050
3.09000 79.32227 0.37025 129.62500 3.93134
3.08000 79.83893 0.36637 126.40016 3.74728
3.07000 80.34276 0.36239 123.27122 3.57881
3.06000 80.83415 0.35827 120.23941 3.42607
3.05000 81.31351 0.35398 117.30513 3.28886
3.04000 81.78122 0.34951 114.46804 3.16665
3.03000 82.23767 0.34484 111.72720 3.05859
3.02000 82.68326 0.33999 109.08111 2.96362
3.01000 83.11835 0.33496 106.52785 2.88046
3.00000 83.54332 0.32975 104.06518 2.80772
2.99000 83.95852 0.32437 101.69053 2.74391
2.98000 84.36432 0.31885 99.40116 2.68756
2.97000 84.76104 0.31320 97.19417 2.63725
2.96000 85.14902 0.30744 95.06655 2.59163
2.95000 85.52856 0.30160 93.01526 2.54947
2.94000 85.89998 0.29569 91.03721 2.50969
2.93000 86.26355 0.28974 89.12937 2.47133
2.92000 86.61956 0.28377 87.28871 2.43361
2.91000 86.96826 0.27780 85.51230 2.39587
2.90000 87.30993 0.27185 83.79726 2.35759
2.89000 87.64479 0.26594 82.14083 2.31836
2.88000 87.97308 0.26009 80.54034 2.27791
2.87000 88.29502 0.25433 78.99325 2.23604
2.86000 88.61081 0.24865 77.49711 2.19262
2.85000 88.92067 0.24309 76.04960 2.14763
2.84000 89.22478 0.23765 74.64853 2.10108
2.83000 89.52333 0.23234 73.29180 2.05302
2.82000 89.81648 0.22717 71.97747 2.00357
2.81000 90.10441 0.22215 70.70365 1.95286
2.80000 90.38728 0.21729 69.46863 1.90105
2.79000 90.66524 0.21259 68.27073 1.84831
2.78000 90.93844 0.20806 67.10844 1.79483
2.77000 91.20702 0.20369 65.98028 1.74080
2.76000 91.47110 0.19949 64.88491 1.68642
2.75000 91.73084 0.19545 63.82103 1.63190
2.74000 91.98634 0.19158 62.78746 1.57744
2.73000 92.23772 0.18786 61.78306 1.52322
2.72000 92.48511 0.18431 60.80677 1.46945
2.71000 92.72862 0.18090 59.85760 1.41631
2.70000 92.96834 0.17764 58.93460 1.36398
2.69000 93.20440 0.17452 58.03689 1.31263
2.68000 93.43687 0.17153 57.16364 1.26243
2.67000 93.66588 0.16867 56.31404 1.21353
2.66000 93.89150 0.16593 55.48737 1.16608
2.65000 94.11382 0.16329 54.68289 1.12022
2.64000 94.33295 0.16077 53.89995 1.07609
2.63000 94.54895 0.15833 53.13790 1.03381
2.62000 94.76193 0.15599 52.39613 0.99349
2.61000 94.97194 0.15373 51.67405 0.95523
2.60000 95.17909 0.15155 50.97110 0.91912
2.59000 95.38343 0.14943 50.28676 0.88526
2.58000 95.58505 0.14738 49.62051 0.85369
2.57000 95.78401 0.14539 48.97185 0.82447
2.56000 95.98039 0.14346 48.34030 0.79764
2.55000 96.17426 0.14157 47.72542 0.77320
2.54000 96.36567 0.13972 47.12674 0.75114
2.53000 96.55470 0.13792 46.54386 0.73145
2.52000 96.74141 0.13615 45.97635 0.71405
2.51000 96.92586 0.13442 45.42380 0.69889
2.50000 97.10811 0.13272 44.88584 0.68585
2.49000 97.28822 0.13105 44.36207 0.67481
2.48000 97.46624 0.12940 43.85214 0.66565
2.47000 97.64223 0.12779 43.35567 0.65821
2.46000 97.81624 0.12620 42.87233 0.65233
2.45000 97.98833 0.12464 42.40177 0.64784
2.44000 98.15855 0.12311 41.94366 0.64456
2.43000 98.32694 0.12160 41.49767 0.64233
2.42000 98.49355 0.12011 41.06350 0.64098
2.41000 98.65843 0.11866 40.64083 0.64034
2.40000 98.82163 0.11723 40.22936 0.64026
2.39000 98.98320 0.11583 39.82880 0.64060
2.38000 99.14316 0.11446 39.43887 0.64123
2.37000 99.30158 0.11313 39.05927 0.64202
2.36000 99.45848 0.11182 38.68975 0.64286
2.35000 99.61391 0.11055 38.33003 0.64366
2.34000 99.76791 0.10932 37.97985 0.64433
2.33000 99.92051 0.10812 37.63896 0.64479
2.32000 100.07176 0.10697 37.30711 0.64498
2.31000 100.22168 0.10585 36.98405 0.64483
2.30000 100.37032 0.10477 36.66956 0.64431
2.29000 100.51771 0.10374 36.36339 0.64336
2.28000 100.66387 0.10275 36.06533 0.64197
2.27000 100.80885 0.10181 35.77515 0.64009
2.26000 100.95267 0.10091 35.49264 0.63772
2.25000 101.09537 0.10006 35.21758 0.63484
2.24000 101.23697 0.09925 34.94978 0.63143
2.23000 101.37751 0.09849 34.68903 0.62751
2.22000 101.51701 0.09778 34.43515 0.62306
2.21000 101.65549 0.09712 34.18793 0.61809
2.20000 101.79300 0.09650 33.94719 0.61261
2.19000 101.92954 0.09592 33.71276 0.60664
2.18000 102.06515 0.09539 33.48446 0.60018
2.17000 102.19985 0.09490 33.26212 0.59326
2.16000 102.33366 0.09446 33.04556 0.58589
2.15000 102.46661 0.09405 32.83464 0.57811
2.14000 102.59872 0.09368 32.62919 0.56992
2.13000 102.73002 0.09335 32.42905 0.56138
2.12000 102.86051 0.09305 32.23409 0.55249
2.11000 102.99023 0.09278 32.04415 0.54330
2.10000 103.11919 0.09254 31.85908 0.53384
2.09000 103.24742 0.09233 31.67877 0.52413
2.08000 103.37492 0.09214 31.50306 0.51423
2.07000 103.50173 0.09198 31.33184 0.50417
2.06000 103.62785 0.09183 31.16497 0.49398
2.05000 103.75331 0.09170 31.00234 0.48371
2.04000 103.87812 0.09158 30.84382 0.47340
2.03000 104.00230 0.09147 30.68931 0.46309
2.02000 104.12586 0.09138 30.53868 0.45284
2.01000 104.24883 0.09129 30.39183 0.44267
2.00000 104.37120 0.09120 30.24866 0.43264
1.99000 104.49301 0.09111 30.10907 0.42280
1.98000 104.61426 0.09102 29.97295 0.41320
1.97000 104.73497 0.09093 29.84022 0.40387
1.96000 104.85515 0.09084 29.71077 0.39487
1.95000 104.97481 0.09074 29.58453 0.38624
1.94000 105.09397 0.09063 29.46140 0.37804
1.93000 105.21264 0.09050 29.34131 0.37029
1.92000 105.33083 0.09037 29.22417 0.36304
1.91000 105.44856 0.09023 29.10990 0.35634
1.90000 105.56582 0.09007 28.99844 0.35020
1.89000 105.68265 0.08989 28.88971 0.34467
1.88000 105.79904 0.08970 28.78364 0.33977
1.87000 105.91500 0.08949 28.68017 0.33552
1.86000 106.03056 0.08926 28.57923 0.33192
1.85000 106.14571 0.08901 28.48076 0.32899
1.84000 106.26047 0.08875 28.38471 0.32673
1.83000 106.37485 0.08846 28.29101 0.32511
1.82000 106.48885 0.08816 28.19962 0.32414
1.81000 106.60249 0.08783 28.11048 0.32379
1.80000 106.71577 0.08748 28.02355 0.32403
1.79000 106.82871 0.08712 27.93877 0.32484
1.78000 106.94131 0.08673 27.85610 0.32617
1.77000 107.05358 0.08632 27.77551 0.32799
1.76000 107.16553 0.08590 27.69695 0.33026
1.75000 107.27716 0.08545 27.62038 0.33294
1.74000 107.38849 0.08498 27.54576 0.33599
1.73000 107.49953 0.08450 27.47307 0.33936
1.72000 107.61027 0.08400 27.40228 0.34302
1.71000 107.72073 0.08348 27.33334 0.34693
1.70000 107.83092 0.08294 27.26625 0.35105
1.69000 107.94084 0.08239 27.20096 0.35535
1.68000 108.05050 0.08182 27.13745 0.35980
1.67000 108.15991 0.08124 27.07571 0.36436
1.66000 108.26907 0.08065 27.01571 0.36902
1.65000 108.37799 0.08004 26.95743 0.37374
1.64000 108.48668 0.07942 26.90086 0.37852
1.63000 108.59515 0.07880 26.84598 0.38332
1.62000 108.70340 0.07816 26.79278 0.38814
1.61000 108.81143 0.07751 26.74125 0.39296
1.60000 108.91926 0.07686 26.69137 0.39777
1.59000 109.02690 0.07620 26.64314 0.40256
1.58000 109.13434 0.07554 26.59654 0.40733
1.57000 109.24160 0.07487 26.55159 0.41206
1.56000 109.34868 0.07421 26.50826 0.41677
1.55000 109.45559 0.07354 26.46655 0.42144
1.54000 109.56233 0.07287 26.42648 0.42608
1.53000 109.66891 0.07221 26.38803 0.43068
1.52000 109.77535 0.07155 26.35120 0.43525
1.51000 109.88163 0.07090 26.31601 0.43980
1.50000 109.98778 0.07026 26.28244 0.44432
1.49000 110.09380 0.06963 26.25052 0.44883
1.48000 110.19969 0.06900 26.22024 0.45332
1.47000 110.30546 0.06840 26.19161 0.45781
1.46000 110.41112 0.06781 26.16465 0.46230
1.45000 110.51668 0.06723 26.13936 0.46680
1.44000 110.62213 0.06668 26.11575 0.47132
1.43000 110.72750 0.06615 26.09383 0.47586
1.42000 110.83278 0.06564 26.07363 0.48043
1.41000 110.93798 0.06517 26.05515 0.48503
1.40000 111.04311 0.06472 26.03841 0.48969
1.39000 111.14817 0.06430 26.02342 0.49439
1.38000 111.25318 0.06393 26.01021 0.49915
1.37000 111.35814 0.06358 25.99880 0.50398
1.36000 111.46306 0.06328 25.98920 0.50888
1.35000 111.56794 0.06303 25.98143 0.51385
1.34000 111.67279 0.06281 25.97552 0.51891
1.33000 111.77763 0.06265 25.97150 0.52404
1.32000 111.88245 0.06254 25.96937 0.52927
1.31000 111.98726 0.06248 25.96918 0.53459
1.30000 112.09208 0.06248 25.97095 0.53999
1.29000 112.19691 0.06254 25.97470 0.54550
1.28000 112.30176 0.06266 25.98046 0.55110
1.27000 112.40664 0.06284 25.98826 0.55679
1.26000 112.51156 0.06309 25.99813 0.56258
1.25000 112.61651 0.06341 26.01011 0.56846
1.24000 112.72152 0.06380 26.02422 0.57444
1.23000 112.82659 0.06425 26.04051 0.58051
1.22000 112.93174 0.06478 26.05899 0.58666
1.21000 113.03696 0.06538 26.07972 0.59291
1.20000 113.14227 0.06605 26.10272 0.59923
1.19000 113.24767 0.06679 26.12803 0.60563
1.18000 113.35319 0.06761 26.15570 0.61211
1.17000 113.45881 0.06851 26.18576 0.61867
1.16000 113.56457 0.06947 26.21825 0.62529
1.15000 113.67046 0.07051 26.25321 0.63197
1.14000 113.77650 0.07162 26.29069 0.63872
1.13000 113.88270 0.07280 26.33074 0.64553
1.12000 113.98906 0.07405 26.37339 0.65238
1.11000 114.09560 0.07537 26.41870 0.65930
1.10000 114.20232 0.07675 26.46671 0.66626
1.09000 114.30925 0.07821 26.51746 0.67326
1.08000 114.41639 0.07972 26.57103 0.68032
1.07000 114.52375 0.08130 26.62744 0.68742
1.06000 114.63134 0.08294 26.68676 0.69457
1.05000 114.73918 0.08464 26.74904 0.70176
1.04000 114.84727 0.08640 26.81434 0.70901
1.03000 114.95564 0.08821 26.88271 0.71631
1.02000 115.06429 0.09008 26.95421 0.72366
1.01000 115.17323 0.09199 27.02890 0.73109
1.00000 115.28248 0.09396 27.10685 0.73858
0.99000 115.39205 0.09598 27.18812 0.74616
0.98000 115.50196 0.09804 27.27276 0.75383
0.97000 115.61221 0.10015 27.36085 0.76160
0.96000 115.72283 0.10230 27.45246 0.76949
0.95000 115.83383 0.10449 27.54765 0.77751
0.94000 115.94521 0.10672 27.64649 0.78569
0.93000 116.05700 0.10899 27.74906 0.79403
0.92000 116.16922 0.11130 27.85543 0.80258
0.91000 116.28187 0.11364 27.96568 0.81133
0.90000 116.39497 0.11601 28.07989 0.82033
0.89000 116.50855 0.11842 28.19813 0.82961
0.88000 116.62261 0.12086 28.32049 0.83918
0.87000 116.73717 0.12333 28.44705 0.84908
0.86000 116.85225 0.12583 28.57790 0.85935
0.85000 116.96787 0.12835 28.71312 0.87002
0.84000 117.08404 0.13091 28.85281 0.88113
0.83000 117.20079 0.13349 28.99705 0.89271
0.82000 117.31812 0.13609 29.14595 0.90481
0.81000 117.43607 0.13873 29.29959 0.91746
0.80000 117.55465 0.14138 29.45808 0.93071
0.79000 117.67387 0.14406 29.62152 0.94460
0.78000 117.79377 0.14677 29.79001 0.95918
0.77000 117.91436 0.14950 29.96366 0.97447
0.76000 118.03566 0.15226 30.14259 0.99053
0.75000 118.15769 0.15505 30.32690 1.00740
0.74000 118.28048 0.15786 30.51670 1.02511
0.73000 118.40404 0.16069 30.71213 1.04370
0.72000 118.52841 0.16356 30.91331 1.06321
0.71000 118.65359 0.16646 31.12035 1.08368
0.70000 118.77963 0.16939 31.33341 1.10512
0.69000 118.90654 0.17235 31.55260 1.12758
0.68000 119.03434 0.17535 31.77807 1.15108
0.67000 119.16307 0.17838 32.00998 1.17563
0.66000 119.29275 0.18146 32.24847 1.20126
0.65000 119.42341 0.18458 32.49370 1.22797
0.64000 119.55506 0.18774 32.74584 1.25577
0.63000 119.68775 0.19095 33.00506 1.28467
0.62000 119.82150 0.19422 33.27155 1.31465
0.61000 119.95635 0.19754 33.54549 1.34571
0.60000 120.09231 0.20092 33.82710 1.37784
0.59000 120.22942 0.20436 34.11658 1.41101
0.58000 120.36772 0.20787 34.41416 1.44519
0.57000 120.50724 0.21145 34.72008 1.48035
0.56000 120.64801 0.21511 35.03459 1.51643
0.55000 120.79007 0.21884 35.35798 1.55340
0.54000 120.93345 0.22267 35.69054 1.59119
0.53000 121.07819 0.22658 36.03258 1.62974
0.52000 121.22433 0.23058 36.38444 1.66897
0.51000 121.37191 0.23469 36.74649 1.70880
0.50000 121.52098 0.23889 37.11914 1.74914
0.49000 121.67157 0.24321 37.50283 1.78989
0.48000 121.82373 0.24763 37.89803 1.83095
0.47000 121.97751 0.25217 38.30526 1.87221
0.46000 122.13296 0.25682 38.72511 1.91356
0.45000 122.29014 0.26159 39.15822 1.95487
0.44000 122.44908 0.26649 39.60529 1.99603
0.43000 122.60987 0.27150 40.06713 2.03692
0.42000 122.77254 0.27665 40.54460 2.07744
0.41000 122.93718 0.28191 41.03872 2.11749
0.40000 123.10385 0.28730 41.55060 2.15698
0.39000 123.27262 0.29281 42.08152 2.19588
0.38000 123.44358 0.29844 42.63292 2.23419
0.37000 123.61680 0.30419 43.20647 2.27196
0.36000 123.79239 0.31005 43.80409 2.30936
0.35000 123.97044 0.31602 44.42797 2.34665
0.34000 124.15107 0.32209 45.08070 2.38429
0.33000 124.33439 0.32826 45.76530 2.42296
0.32000 124.52055 0.33451 46.48531 2.46366
0.31000 124.70970 0.34085 47.24494 2.50782
0.30000 124.90199 0.34725 48.04921 2.55746
0.29000 125.09764 0.35373 48.90414 2.61539
0.28000 125.29685 0.36026 49.81698 2.68545
0.27000 125.49987 0.36685 50.79654 2.77285
0.26000 125.70700 0.37349 51.85359 2.88448
0.25000 125.91858 0.38020 53.00132 3.02937
0.24000 126.13499 0.38698 54.25602 3.21908
0.23000 126.35673 0.39388 55.63788 3.46808
0.22000 126.58433 0.40094 57.17202 3.79413
0.21000 126.81849 0.40826 58.88986 4.21874
0.20000 127.06001 0.41598 60.83077 4.76770
0.19000 127.30991 0.42432 63.04425 5.47211
0.18000 127.56938 0.43362 65.59267 6.36972
0.17000 127.83995 0.44440 68.55472 7.50696
0.16000 128.12348 0.45743 72.02973 8.94144
0.15000 128.42227 0.47386 76.14307 10.74505
0.14000 128.73920 0.49531 81.05276 13.00748
0.13000 129.07789 0.52409 86.95748 15.84011
0.12000 129.44283 0.56329 94.10603 19.38007
0.11000 129.83964 0.61693 102.80816 23.79386
0.10000 130.27534 0.68994 113.44637 29.27993
0.09000 130.75866 0.78818 126.48779 36.06859
0.08000 131.30039 0.91830 142.49435 44.41730
0.07000 131.91381 1.08770 162.12830 54.59800
0.06000 132.61506 1.30456 186.14837 66.87241
0.05000 133.42350 1.57769 215.38990 81.45001
0.04000 134.36197 1.91629 250.72011 98.42427
0.03000 135.45672 2.32939 292.95829 117.68451
0.02000 136.73703 2.82482 342.75194 138.80796
0.01000 138.23416 3.40770 400.40520 160.94785
0.00000 139.97954 4.07847 465.66795 182.75068
-0.01000 142.00212 4.83069 537.51328 202.35360
-0.02000 144.32480 5.64892 613.95335 217.52178
-0.03000 146.96036 6.50750 691.96129 225.97192
-0.04000 149.90740 7.37078 767.56562 225.88056
-0.05000 153.14705 8.19532 836.15553 216.50546
-0.06000 156.64135 8.93418 892.98175 198.79345
-0.07000 160.33395 9.54246 933.77634 175.86062
-0.08000 164.15328 9.98302 955.36961 153.22873
-0.09000 168.01803 10.23091 956.16833 138.17529
-0.10000 171.84410 10.27572 936.38384 136.36286
-0.11000 175.55177 10.12154 897.95561 146.98944
-0.12000 179.07210 9.78505 844.19288 163.93643
-0.13000 182.35137 9.29250 779.23004 181.14524
-0.14000 185.35319 8.67646 707.43204 194.81916
-0.15000 188.05838 7.97263 632.88042 203.05009
-0.16000 190.46304 7.21717 559.02324 205.14518
-0.17000 192.57559 6.44412 488.50837 201.22805
-0.18000 194.41348 5.68334 423.16815 192.02180
-0.19000 196.00005 4.95893 364.10125 178.66665
-0.20000 197.36178 4.28830 311.80080 162.51320
-0.21000 198.52619 3.68225 266.29473 144.91173
-0.22000 199.52017 3.14559 227.27920 127.04315
-0.23000 200.36892 2.67837 194.23584 109.82112
-0.24000 201.09530 2.27720 166.52845 93.86563
-0.25000 201.71947 1.93652 143.47770 79.52923
-0.26000 202.25888 1.64964 124.41450 66.95096
-0.27000 202.72832 1.40958 108.71447 56.11758
-0.28000 203.14023 1.20955 95.81715 46.91906
-0.29000 203.50491 1.04328 85.23386 39.19268
-0.30000 203.83083 0.90522 76.54779 32.75460
-0.31000 204.12491 0.79055 69.40942 27.42051
-0.32000 204.39282 0.69515 63.52940 23.01779
-0.33000 204.63912 0.61559 58.67058 19.39171
-0.34000 204.86754 0.54903 54.63997 16.40766
-0.35000 205.08110 0.49311 51.28135 13.95101
-0.36000 205.28224 0.44594 48.46875 11.92568
-0.37000 205.47296 0.40596 46.10077 10.25201
-0.38000 205.65488 0.37190 44.09591 8.86460
-0.39000 205.82932 0.34274 42.38864 7.71004
-0.40000 205.99738 0.31765 40.92626 6.74499
-0.41000 206.15997 0.29595 39.66629 5.93438
-0.42000 206.31781 0.27709 38.57443 5.24992
-0.43000 206.47154 0.26062 37.62292 4.66884
-0.44000 206.62168 0.24616 36.78919 4.17283
-0.45000 206.76865 0.23341 36.05484 3.74714
-0.46000 206.91284 0.22211 35.40481 3.37994
-0.47000 207.05455 0.21205 34.82671 3.06166
-0.48000 207.19406 0.20305 34.31032 2.78458
-0.49000 207.33159 0.19495 33.84714 2.54243
-0.50000 207.46735 0.18763 33.43007 2.33010
-0.51000 207.60151 0.18098 33.05317 2.14341
-0.52000 207.73422 0.17490 32.71144 1.97889
-0.53000 207.86561 0.16933 32.40062 1.83365
-0.54000 207.99580 0.16419 32.11710 1.70528
-0.55000 208.12490 0.15943 31.85778 1.59171
-0.56000 208.25300 0.15501 31.61999 1.49117
-0.57000 208.38018 0.15087 31.40145 1.40214
-0.58000 208.50651 0.14699 31.20014 1.32326
-0.59000 208.63206 0.14333 31.01432 1.25333
-0.60000 208.75689 0.13988 30.84247 1.19130
-0.61000 208.88105 0.13662 30.68324 1.13621
-0.62000 209.00459 0.13351 30.53546 1.08721
-0.63000 209.12756 0.13056 30.39807 1.04350
-0.64000 209.24999 0.12775 30.27013 1.00441
-0.65000 209.37193 0.12507 30.15083 0.96930
-0.66000 209.49339 0.12250 30.03941 0.93761
-0.67000 209.61443 0.12005 29.93521 0.90884
-0.68000 209.73505 0.11771 29.83764 0.88256
-0.69000 209.85530 0.11546 29.74616 0.85838
-0.70000 209.97518 0.11332 29.66028 0.83596
-0.71000 210.09473 0.11126 29.57956 0.81502
-0.72000 210.21397 0.10930 29.50361 0.79529
-0.73000 210.33291 0.10742 29.43206 0.77658
-0.74000 210.45156 0.10563 29.36458 0.75869
-0.75000 210.56995 0.10392 29.30089 0.74149
-0.76000 210.68810 0.10228 29.24069 0.72484
-0.77000 210.80600 0.10073 29.18375 0.70865
-0.78000 210.92368 0.09925 29.12984 0.69284
-0.79000 211.04115 0.09784 29.07875 0.67735
-0.80000 211.15842 0.09649 29.03028 0.66212
-0.81000 211.27550 0.09522 28.98426 0.64712
-0.82000 211.39240 0.09401 28.94053 0.63232
-0.83000 211.50912 0.09287 28.89894 0.61771
-0.84000 211.62569 0.09178 28.85935 0.60329
-0.85000 211.74209 0.09075 28.82164 0.58904
-0.86000 211.85835 0.08978 28.78568 0.57498
-0.87000 211.97446 0.08886 28.75137 0.56111
-0.88000 212.09044 0.08798 28.71862 0.54745
-0.89000 212.20629 0.08716 28.68731 0.53400
-0.90000 212.32202 0.08638 28.65738 0.52079
-0.91000 212.43763 0.08564 28.62873 0.50783
-0.92000 212.55313 0.08494 28.60130 0.49515
-0.93000 212.66851 0.08428 28.57502 0.48276
-0.94000 212.78380 0.08366 28.54981 0.47069
-0.95000 212.89898 0.08306 28.52562 0.45895
-0.96000 213.01407 0.08250 28.50239 0.44757
-0.97000 213.12907 0.08196 28.48007 0.43656
-0.98000 213.24397 0.08145 28.45861 0.42595
-0.99000 213.35880 0.08097 28.43797 0.41574
-1.00000 213.47354 0.08051 28.41809 0.40596
-1.01000 213.58820 0.08006 28.39894 0.39662
-1.02000 213.70279 0.07964 28.38048 0.38773
-1.03000 213.81730 0.07923 28.36268 0.37930
-1.04000 213.93174 0.07885 28.34550 0.37132
-1.05000 214.04612 0.07847 28.32890 0.36382
-1.06000 214.16043 0.07811 28.31287 0.35679
-1.07000 214.27467 0.07777 28.29736 0.35022
-1.08000 214.38886 0.07743 28.28236 0.34412
-1.09000 214.50298 0.07711 28.26783 0.33846
-1.10000 214.61705 0.07680 28.25376 0.33326
-1.11000 214.73106 0.07650 28.24012 0.32848
-1.12000 214.84501 0.07621 28.22689 0.32411
-1.13000 214.95892 0.07593 28.21405 0.32015
-1.14000 215.07277 0.07566 28.20157 0.31656
-1.15000 215.18657 0.07540 28.18945 0.31332
-1.16000 215.30033 0.07514 28.17766 0.31042
-1.17000 215.41403 0.07490 28.16619 0.30783
-1.18000 215.52770 0.07466 28.15502 0.30552
-1.19000 215.64131 0.07443 28.14414 0.30348
-1.20000 215.75489 0.07421 28.13353 0.30167
-1.21000 215.86842 0.07400 28.12318 0.30007
-1.22000 215.98191 0.07379 28.11308 0.29866
-1.23000 216.09536 0.07360 28.10320 0.29742
-1.24000 216.20877 0.07341 28.09355 0.29633
-1.25000 216.32214 0.07323 28.08411 0.29536
-1.26000 216.43548 0.07306 28.07487 0.29449
-1.27000 216.54878 0.07290 28.06582 0.29371
-1.28000 216.66204 0.07274 28.05695 0.29300
-1.29000 216.77526 0.07259 28.04825 0.29235
-1.30000 216.88846 0.07246 28.03971 0.29175
-1.31000 217.00161 0.07233 28.03132 0.29118
-1.32000 217.11474 0.07220 28.02308 0.29063
-1.33000 217.22783 0.07209 28.01497 0.29009
-1.34000 217.34088 0.07198 28.00700 0.28957
-1.35000 217.45391 0.07188 27.99914 0.28905
-1.36000 217.56691 0.07179 27.99140 0.28854
-1.37000 217.67987 0.07171 27.98376 0.28802
-1.38000 217.79280 0.07164 27.97623 0.28750
-1.39000 217.90571 0.07157 27.96879 0.28698
-1.40000 218.01858 0.07151 27.96145 0.28645
-1.41000 218.13142 0.07145 27.95418 0.28594
-1.42000 218.24424 0.07141 27.94700 0.28542
-1.43000 218.35702 0.07137 27.93989 0.28492
-1.44000 218.46978 0.07133 27.93284 0.28444
-1.45000 218.58251 0.07130 27.92587 0.28397
-1.46000 218.69521 0.07128 27.91895 0.28354
-1.47000 218.80788 0.07127 27.91209 0.28314
-1.48000 218.92053 0.07126 27.90528 0.28278
-1.49000 219.03314 0.07125 27.89851 0.28247
-1.50000 219.14573 0.07125 27.89179 0.28221
-1.51000 219.25830 0.07126 27.88512 0.28202
-1.52000 219.37084 0.07127 27.87848 0.28190
-1.53000 219.48335 0.07129 27.87188 0.28185
-1.54000 219.59583 0.07131 27.86531 0.28188
-1.55000 219.70829 0.07133 27.85877 0.28201
-1.56000 219.82072 0.07136 27.85225 0.28222
-1.57000 219.93312 0.07140 27.84577 0.28253
-1.58000 220.04550 0.07144 27.83930 0.28293
-1.59000 220.15785 0.07148 27.83286 0.28344
-1.60000 220.27018 0.07153 27.82644 0.28404
-1.61000 220.38248 0.07159 27.82004 0.28474
-1.62000 220.49475 0.07165 27.81366 0.28554
-1.63000 220.60700 0.07171 27.80729 0.28643
-1.64000 220.71923 0.07178 27.80094 0.28742
-1.65000 220.83142 0.07186 27.79461 0.28849
-1.66000 220.94359 0.07194 27.78829 0.28963
-1.67000 221.05574 0.07202 27.78199 0.29085
-1.68000 221.16786 0.07211 27.77570 0.29213
-1.69000 221.27996 0.07221 27.76942 0.29345
-1.70000 221.39203 0.07232 27.76316 0.29483
-1.71000 221.50407 0.07243 27.75691 0.29623
-1.72000 221.61609 0.07255 27.75067 0.29765
-1.73000 221.72809 0.07267 27.74445 0.29907
-1.74000 221.84006 0.07281 27.73824 0.30049
-1.75000 221.95200 0.07295 27.73205 0.30188
-1.76000 222.06392 0.07310 27.72588 0.30324
-1.77000 222.17582 0.07326 27.71972 0.30455
-1.78000 222.28769 0.07343 27.71357 0.30580
-1.79000 222.39953 0.07360 27.70744 0.30697
-1.80000 222.51136 0.07379 27.70133 0.30804
-1.81000 222.62315 0.07398 27.69524 0.30901
-1.82000 222.73492 0.07418 27.68917 0.30987
-1.83000 222.84667 0.07440 27.68312 0.31058
-1.84000 222.95839 0.07462 27.67708 0.31116
-1.85000 223.07009 0.07485 27.67107 0.31157
-1.86000 223.18177 0.07509 27.66507 0.31182
-1.87000 223.29342 0.07534 27.65910 0.31188
-1.88000 223.40504 0.07560 27.65315 0.31176
-1.89000 223.51664 0.07587 27.64722 0.31143
-1.90000 223.62822 0.07614 27.64131 0.31089
-1.91000 223.73978 0.07643 27.63542 0.31013
-1.92000 223.85131 0.07672 27.62955 0.30915
-1.93000 223.96281 0.07702 27.62370 0.30794
-1.94000 224.07430 0.07732 27.61787 0.30649
-1.95000 224.18576 0.07763 27.61206 0.30481
-1.96000 224.29719 0.07795 27.60627 0.30287
-1.97000 224.40861 0.07827 27.60050 0.30070
-1.98000 224.52000 0.07859 27.59475 0.29827
-1.99000 224.63136 0.07892 27.58901 0.29560
-2.00000 224.74271 0.07925 27.58328 0.29269
-2.01000 224.85403 0.07958 27.57756 0.28954
-2.02000 224.96532 0.07992 27.57186 0.28614
-2.03000 225.07660 0.08025 27.56616 0.28252
-2.04000 225.18785 0.08058 27.56047 0.27868
-2.05000 225.29908 0.08090 27.55478 0.27462
-2.06000 225.41028 0.08123 27.54910 0.27036
-2.07000 225.52146 0.08154 27.54341 0.26591
-2.08000 225.63262 0.08186 27.53772 0.26128
-2.09000 225.74376 0.08216 27.53202 0.25649
-2.10000 225.85487 0.08246 27.52630 0.25155
-2.11000 225.96596 0.08275 27.52058 0.24650
-2.12000 226.07703 0.08302 27.51483 0.24135
-2.13000 226.18808 0.08329 27.50906 0.23613
-2.14000 226.29910 0.08354 27.50327 0.23086
-2.15000 226.41009 0.08378 27.49745 0.22558
-2.16000 226.52107 0.08401 27.49159 0.22032
-2.17000 226.63202 0.08421 27.48570 0.21512
-2.18000 226.74294 0.08441 27.47976 0.21002
-2.19000 226.85385 0.08458 27.47377 0.20507
-2.20000 226.96472 0.08474 27.46774 0.20030
-2.21000 227.07558 0.08487 27.46164 0.19577
-2.22000 227.18640 0.08499 27.45549 0.19153
-2.23000 227.29721 0.08508 27.44927 0.18763
-2.24000 227.40799 0.08516 27.44298 0.18413
-2.25000 227.51874 0.08521 27.43662 0.18107
-2.26000 227.62947 0.08524 27.43018 0.17852
-2.27000 227.74017 0.08524 27.42365 0.17652
-2.28000 227.85084 0.08522 27.41704 0.17510
-2.29000 227.96149 0.08518 27.41033 0.17430
-2.30000 228.07211 0.08511 27.40353 0.17414
-2.31000 228.18270 0.08501 27.39662 0.17464
-2.32000 228.29327 0.08489 27.38962 0.17580
-2.33000 228.40380 0.08475 27.38250 0.17761
-2.34000 228.51431 0.08457 27.37527 0.18005
-2.35000 228.62479 0.08438 27.36792 0.18309
-2.36000 228.73523 0.08415 27.36046 0.18669
-2.37000 228.84565 0.08390 27.35287 0.19081
-2.38000 228.95604 0.08363 27.34516 0.19541
-2.39000 229.06639 0.08333 27.33732 0.20044
-2.40000 229.17672 0.08301 27.32934 0.20584
-2.41000 229.28701 0.08266 27.32124 0.21157
-2.42000 229.39726 0.08228 27.31300 0.21758
-2.43000 229.50749 0.08189 27.30463 0.22382
-2.44000 229.61768 0.08147 27.29612 0.23024
-2.45000 229.72783 0.08103 27.28747 0.23680
-2.46000 229.83795 0.08056 27.27868 0.24347
-2.47000 229.94804 0.08008 27.26975 0.25021
